[
  {
    "resourceType": "Patient",
    "id": "0"
  },
  {
    "resourceType": "Patient",
    "id": "1"
  },
  {
    "resourceType": "Patient",
    "id": "2"
  },
  {
    "resourceType": "Condition",
    "id": "0",
    "code": {
      "coding": [
        {
          "system": "http://fhir.de/CodeSystem/dimdi/icd-10-gm",
          "version": "2019",
          "code": "C50"
        }
      ]
    },
    "subject": {
      "reference": "Patient/0"
    }
  },
  {
    "resourceType": "Specimen",
    "id": "0",
    "type": {
      "coding": [
        {
          "system": "urn:mdr16:dataelement:15:1",
          "code": "tissue frozen"
        }
      ]
    },
    "subject": {
      "reference": "Patient/0"
    }
  },
  {
    "resourceType": "Condition",
    "id": "1",
    "code": {
      "coding": [
        {
          "system": "http://fhir.de/CodeSystem/dimdi/icd-10-gm",
          "version": "2019",
          "code": "C50"
        }
      ]
    },
    "subject": {
      "reference": "Patient/1"
    }
  }
]
