[
  {
    "resourceType": "Patient",
    "id": "0"
  },
  {
    "resourceType": "Patient",
    "id": "1"
  },
  {
    "resourceType": "Patient",
    "id": "2"
  },
  {
    "resourceType": "Patient",
    "id": "3"
  },
  {
    "resourceType": "Condition",
    "id": "0",
    "code": {
      "coding": [
        {
          "system": "http://fhir.de/CodeSystem/dimdi/icd-10-gm",
          "version": "2019",
          "code": "C49"
        }
      ]
    },
    "subject": {
      "reference": "Patient/0"
    }
  },
  {
    "resourceType": "Condition",
    "id": "1",
    "code": {
      "coding": [
        {
          "system": "http://fhir.de/CodeSystem/dimdi/icd-10-gm",
          "version": "2019",
          "code": "C08"
        }
      ]
    },
    "subject": {
      "reference": "Patient/1"
    }
  },
  {
    "resourceType": "Condition",
    "id": "2",
    "code": {
      "coding": [
        {
          "system": "http://fhir.de/CodeSystem/dimdi/icd-10-gm",
          "version": "2019",
          "code": "M31.1"
        }
      ]
    },
    "subject": {
      "reference": "Patient/2"
    }
  }
]
